Data from LampG_AbsoluteIrradiance_09-52-00-248.txt Node
Date: Thu Aug 02 09:52:00 EDT 2018
User: ORCAIIP
Spectrometer: OFX00466
Trigger mode: 0
Integration Time (sec): 4.000000E-3
Scans to average: 250
Nonlinearity correction enabled: false
Boxcar width: 0
Storing dark spectrum: false
XAxis mode: Wavelengths
Number of Pixels in Spectrum: 2136
>>>>>Begin Spectral Data<<<<<
160.337	0
160.809	0
161.28	0
161.752	0
162.224	0
162.695	0
163.166	0
163.638	0
164.109	0
164.58	0
165.052	-0
165.523	0
165.994	-0
166.465	-0
166.936	0
167.407	0
167.877	0
168.348	0
168.819	0
169.29	0
169.76	0
170.231	0
170.701	-0
171.172	0
171.642	-0
172.112	0
172.582	0
173.053	-0
173.523	0
173.993	0
174.463	0
174.933	-0
175.403	0
175.872	0
176.342	0
176.812	0
177.282	0
177.751	-0
178.221	0
178.69	0
179.159	0
179.629	0
180.098	-0
180.567	0
181.036	-0
181.506	0
181.975	0
182.444	0
182.912	-0
183.381	0
183.85	0
184.319	0
184.788	0
185.256	0
185.725	0
186.193	0
186.662	0
187.13	0
187.598	-0
188.067	0
188.535	0
189.003	0
189.471	0
189.939	0
190.407	0
190.875	0
191.343	0
191.811	0
192.278	0
192.746	0
193.214	0
193.681	0
194.149	0
194.616	0
195.083	0
195.551	0
196.018	0
196.485	0
196.952	-0
197.419	0
197.886	0
198.353	0
198.82	0
199.287	0
199.754	0
200.221	-0
200.687	-0
201.154	0.11
201.62	0.02
202.087	0.07
202.553	-0.45
203.02	-0.42
203.486	-0.63
203.952	-0.44
204.418	-0.6
204.885	-0.45
205.351	-0.5
205.817	-0.25
206.283	-0.41
206.748	-0.22
207.214	-0.21
207.68	-0.34
208.146	-0.32
208.611	-0.32
209.077	-0.29
209.543	-0.26
210.008	-0.22
210.473	-0.22
210.939	-0.25
211.404	-0.18
211.869	-0.12
212.334	-0.16
212.8	-0.14
213.265	-0.12
213.73	-0.11
214.195	-0.09
214.659	-0.2
215.124	-0.07
215.589	-0.24
216.054	-0.13
216.518	-0.17
216.983	-0.05
217.448	-0.16
217.912	-0.11
218.376	-0.15
218.841	-0.12
219.305	-0.15
219.769	-0.07
220.233	-0.14
220.698	-0.08
221.162	-0.14
221.626	-0.11
222.089	-0.12
222.553	-0.05
223.017	-0.11
223.481	-0.1
223.945	-0.1
224.408	-0.12
224.872	-0.08
225.335	-0.07
225.799	-0.07
226.262	-0.07
226.726	-0.1
227.189	-0.08
227.652	-0.09
228.115	-0.05
228.578	-0.08
229.041	-0.06
229.504	-0.05
229.967	-0.09
230.43	-0.06
230.893	-0.05
231.356	-0.13
231.818	-0.06
232.281	-0.12
232.744	-0.07
233.206	-0.04
233.669	-0.08
234.131	-0.07
234.593	-0.08
235.056	-0.05
235.518	-0.08
235.98	-0.06
236.442	-0.13
236.904	-0.06
237.366	-0.06
237.828	-0.09
238.29	-0.07
238.752	-0.06
239.214	-0.09
239.675	-0.07
240.137	-0.06
240.598	-0.04
241.06	-0.04
241.521	-0.07
241.983	-0.1
242.444	-0.05
242.905	-0.04
243.367	-0.01
243.828	-0.04
244.289	-0.07
244.75	-0.06
245.211	-0.05
245.672	-0.06
246.133	-0.06
246.594	-0.03
247.054	-0.03
247.515	-0.07
247.976	-0.08
248.436	-0.02
248.897	-0.07
249.357	-0.04
249.818	-0.04
250.278	-0.06
250.738	-0.05
251.198	-0.05
251.659	-0.07
252.119	-0.05
252.579	-0.08
253.039	-0.03
253.499	-0.05
253.958	-0.04
254.418	-0.06
254.878	-0.06
255.338	-0.03
255.797	-0.04
256.257	-0.02
256.716	-0.03
257.176	-0.04
257.635	-0.05
258.095	-0.07
258.554	-0.03
259.013	-0.02
259.472	-0.03
259.931	-0.02
260.391	-0.05
260.85	-0.04
261.308	-0.02
261.767	-0.05
262.226	-0.05
262.685	-0.02
263.144	-0.04
263.602	-0.02
264.061	-0.05
264.519	-0.03
264.978	-0.04
265.436	-0.04
265.895	-0.05
266.353	-0.06
266.811	-0.05
267.269	-0.04
267.727	-0.03
268.185	-0.03
268.643	-0.05
269.101	-0.06
269.559	-0.03
270.017	-0.05
270.475	-0.03
270.933	-0.05
271.39	-0.04
271.848	-0.02
272.305	-0.04
272.763	-0.06
273.22	-0.02
273.678	-0.02
274.135	-0.04
274.592	-0.02
275.049	-0.03
275.506	-0.04
275.963	-0.03
276.42	-0.02
276.877	-0.03
277.334	-0.03
277.791	-0.03
278.248	-0.04
278.705	-0.01
279.161	-0.03
279.618	-0.02
280.074	-0.03
280.531	-0.02
280.987	-0.03
281.444	-0.03
281.9	-0.03
282.356	-0.03
282.812	-0.02
283.268	-0.05
283.725	-0.03
284.181	-0.04
284.636	-0.01
285.092	-0.03
285.548	-0.02
286.004	-0.04
286.46	-0.02
286.915	-0.03
287.371	-0.02
287.827	-0.03
288.282	-0.02
288.737	-0.02
289.193	-0.03
289.648	-0
290.103	-0.02
290.559	-0.02
291.014	-0.04
291.469	-0.02
291.924	-0.04
292.379	-0.02
292.834	-0.03
293.289	-0
293.743	-0.02
294.198	-0.01
294.653	-0.01
295.107	-0.05
295.562	-0.02
296.016	-0.01
296.471	-0.01
296.925	-0
297.38	-0.01
297.834	-0.01
298.288	-0.02
298.742	-0.02
299.196	-0.02
299.65	-0
300.104	-0.02
300.558	-0.01
301.012	-0.01
301.466	-0.01
301.92	-0.01
302.373	-0
302.827	-0.02
303.281	-0
303.734	-0
304.188	-0.02
304.641	-0.02
305.094	-0.01
305.548	-0.02
306.001	-0
306.454	-0.01
306.907	-0
307.36	-0.02
307.813	-0
308.266	-0
308.719	-0.01
309.172	0
309.624	-0.01
310.077	-0.01
310.53	-0.02
310.982	0.01
311.435	-0.01
311.887	0
312.34	-0.01
312.792	-0.02
313.244	-0.01
313.697	-0
314.149	-0
314.601	-0.01
315.053	0.01
315.505	-0.01
315.957	-0.01
316.409	-0.03
316.861	-0.01
317.313	-0.01
317.764	0.01
318.216	-0
318.668	0
319.119	-0.01
319.571	-0.01
320.022	0
320.473	0
320.925	0.01
321.376	-0
321.827	-0
322.278	-0.02
322.729	-0.01
323.18	0.01
323.631	-0.03
324.082	-0
324.533	0
324.984	-0.01
325.435	-0.01
325.885	-0
326.336	-0
326.787	0
327.237	0
327.687	0.01
328.138	-0.01
328.588	-0.01
329.038	-0
329.489	0
329.939	-0
330.389	-0
330.839	-0
331.289	-0.01
331.739	0.01
332.189	0
332.639	-0.01
333.088	-0
333.538	0
333.988	-0.01
334.437	-0.01
334.887	-0
335.336	-0.01
335.786	0.01
336.235	0
336.684	0
337.134	0
337.583	-0.01
338.032	0
338.481	-0
338.93	-0
339.379	-0
339.828	-0
340.277	0
340.725	-0.01
341.174	0
341.623	-0
342.071	0
342.52	0
342.969	0.01
343.417	0
343.865	0.01
344.314	-0.01
344.762	-0.01
345.21	0.01
345.658	0.01
346.106	-0.01
346.554	0
347.002	0
347.45	-0.01
347.898	-0.01
348.346	0.01
348.794	-0
349.241	0.01
349.689	0.01
350.137	0.01
350.584	-0
351.032	0.01
351.479	0.01
351.926	-0.01
352.374	0.01
352.821	0.01
353.268	0
353.715	0.01
354.162	0
354.609	0.01
355.056	0.01
355.503	-0.01
355.95	0
356.397	-0
356.843	-0
357.29	-0
357.737	0.01
358.183	0.01
358.63	-0.01
359.076	0.01
359.522	0
359.969	-0
360.415	-0
360.861	0.01
361.307	0.01
361.754	0.01
362.2	0.01
362.646	0
363.091	-0.02
363.537	0.01
363.983	0
364.429	0
364.875	0
365.32	-0
365.766	0.01
366.211	0.01
366.657	0.01
367.102	-0
367.547	0
367.993	0
368.438	0.01
368.883	0.02
369.328	-0.01
369.773	-0
370.218	0.01
370.663	0.01
371.108	0.01
371.553	0
371.998	-0.01
372.442	-0
372.887	-0.01
373.332	0.01
373.776	0.01
374.221	0
374.665	0.01
375.11	-0
375.554	-0
375.998	0.01
376.442	0.01
376.887	0.01
377.331	-0
377.775	0.01
378.219	0.01
378.663	0
379.106	0.01
379.55	0.01
379.994	-0
380.438	-0
380.881	-0
381.325	-0
381.768	0.01
382.212	0
382.655	0.01
383.099	0.01
383.542	0
383.985	0
384.428	-0
384.871	0
385.315	-0.01
385.758	0.01
386.201	0.01
386.643	0
387.086	0
387.529	0
387.972	-0
388.414	0.01
388.857	0
389.3	0.01
389.742	0.01
390.185	0
390.627	0.01
391.069	0
391.512	0.02
391.954	0.01
392.396	0
392.838	0.01
393.28	0
393.722	0.01
394.164	0.01
394.606	0.01
395.048	0
395.489	0.01
395.931	0.01
396.373	0
396.814	0.01
397.256	0.01
397.697	-0.01
398.139	0.01
398.58	0
399.021	0.01
399.463	0.01
399.904	0.01
400.345	-0
400.786	0.01
401.227	0.01
401.668	0.01
402.109	0.01
402.55	0.01
402.991	0.01
403.431	0.01
403.872	-0.01
404.313	0.01
404.753	0.01
405.194	0
405.634	0
406.075	0.01
406.515	0.01
406.955	0
407.396	0.01
407.836	-0
408.276	0.01
408.716	0.01
409.156	0.02
409.596	0
410.036	-0
410.476	0.01
410.915	0.01
411.355	0.02
411.795	0.01
412.234	0.01
412.674	0
413.114	0.01
413.553	-0
413.992	0.01
414.432	0.01
414.871	0.01
415.31	0.01
415.749	0.01
416.188	0.01
416.628	0.01
417.067	0.01
417.505	-0.01
417.944	0
418.383	-0.01
418.822	0
419.261	0
419.699	-0
420.138	0.01
420.576	0
421.015	0
421.453	0.01
421.892	0.01
422.33	0
422.768	0
423.207	0.01
423.645	0.01
424.083	0
424.521	0.01
424.959	0
425.397	0.01
425.835	0.01
426.272	0.01
426.71	0
427.148	0.01
427.585	0.01
428.023	0.02
428.461	0.01
428.898	0.01
429.335	0
429.773	0.01
430.21	0
430.647	-0.01
431.085	0
431.522	0
431.959	0
432.396	0.02
432.833	-0
433.27	0
433.707	0.01
434.143	0
434.58	-0
435.017	0
435.453	0
435.89	0.01
436.327	0
436.763	0.01
437.199	-0
437.636	0.01
438.072	0
438.508	0.01
438.944	0
439.381	0
439.817	-0
440.253	0
440.689	0.01
441.125	0.01
441.56	0.01
441.996	0
442.432	0
442.868	0
443.303	-0.01
443.739	0.02
444.174	0
444.61	-0
445.045	-0
445.48	0
445.916	0
446.351	0
446.786	0
447.221	0.01
447.656	-0
448.091	0
448.526	0.01
448.961	0
449.396	0
449.831	0.01
450.266	-0
450.7	0
451.135	0.01
451.569	-0
452.004	0
452.438	0
452.873	-0
453.307	-0
453.741	0
454.176	0
454.61	-0
455.044	0.01
455.478	-0
455.912	0
456.346	0.01
456.78	0.01
457.214	0
457.647	0
458.081	0
458.515	0.01
458.948	0
459.382	0
459.815	0.01
460.249	0
460.682	0
461.116	-0
461.549	0
461.982	-0
462.415	-0
462.848	0.01
463.281	-0
463.714	0.01
464.147	0
464.58	0
465.013	-0
465.446	0.01
465.879	0.01
466.311	0.01
466.744	0
467.176	0
467.609	0.01
468.041	-0
468.474	0
468.906	-0
469.338	0.01
469.771	0.01
470.203	0
470.635	0
471.067	0
471.499	0.01
471.931	0
472.363	0
472.795	0
473.226	0
473.658	0.01
474.09	0.01
474.521	-0
474.953	-0.01
475.384	0
475.816	0
476.247	-0
476.679	0.01
477.11	0.01
477.541	-0
477.972	0
478.403	0
478.834	-0
479.265	-0
479.696	-0
480.127	0.01
480.558	0.01
480.989	-0
481.42	0
481.85	-0
482.281	-0
482.711	0
483.142	-0
483.572	0.02
484.003	-0
484.433	-0
484.863	0
485.294	-0
485.724	0.01
486.154	0
486.584	-0
487.014	0.01
487.444	-0
487.874	0.01
488.304	-0.01
488.733	0
489.163	0.01
489.593	0.01
490.022	-0
490.452	0
490.881	-0.01
491.311	0.01
491.74	0
492.17	0
492.599	0.01
493.028	-0
493.457	0.01
493.886	0.01
494.316	-0
494.745	-0
495.173	-0.01
495.602	0
496.031	-0
496.46	0
496.889	0.01
497.317	0.01
497.746	-0.01
498.175	0
498.603	0.01
499.032	0.02
499.46	0
499.888	0.01
500.317	-0
500.745	0.01
501.173	0.01
501.601	0.01
502.029	0.01
502.457	0
502.885	0.01
503.313	0.01
503.741	0
504.169	0.01
504.596	0.01
505.024	0.01
505.452	-0
505.879	0.01
506.307	0.02
506.734	0.01
507.162	0
507.589	0.01
508.016	-0
508.444	-0
508.871	0.01
509.298	0.01
509.725	0.01
510.152	-0
510.579	-0
511.006	-0.01
511.433	0
511.86	-0.01
512.286	-0
512.713	0
513.14	0
513.566	0.01
513.993	0.01
514.419	0.01
514.846	0.01
515.272	0
515.698	0.01
516.125	0.01
516.551	0
516.977	0.01
517.403	0.01
517.829	0
518.255	0
518.681	0.01
519.107	0.02
519.533	0.01
519.958	0.01
520.384	0.01
520.81	0
521.235	0
521.661	0.01
522.086	0.02
522.512	0
522.937	-0
523.362	0.01
523.788	-0.01
524.213	-0
524.638	0
525.063	0.01
525.488	0
525.913	-0.01
526.338	0
526.763	-0
527.188	0.01
527.613	-0.01
528.037	0.01
528.462	-0
528.887	0.01
529.311	-0
529.736	0
530.16	0
530.585	0
531.009	0.01
531.433	0
531.857	-0.01
532.282	0.01
532.706	-0.01
533.13	-0
533.554	0.01
533.978	0.01
534.402	0.01
534.825	-0
535.249	0
535.673	-0
536.097	0
536.52	0.01
536.944	0
537.367	0
537.791	-0.01
538.214	0
538.638	0
539.061	0
539.484	0
539.907	0
540.33	0.01
540.754	-0.01
541.177	0
541.6	-0
542.022	-0.01
542.445	0.01
542.868	0
543.291	0.01
543.714	0.01
544.136	0
544.559	-0
544.981	0.01
545.404	-0
545.826	0
546.249	-0
546.671	0.01
547.093	0
547.515	-0.01
547.938	-0
548.36	0.02
548.782	-0
549.204	-0.01
549.626	0
550.048	-0.01
550.469	0
550.891	0
551.313	0
551.734	-0.01
552.156	-0.01
552.578	0
552.999	0
553.421	0.01
553.842	-0.01
554.263	0
554.685	0
555.106	0
555.527	0.01
555.948	-0.01
556.369	0
556.79	-0
557.211	-0
557.632	0.01
558.053	0
558.474	0.01
558.894	0
559.315	0
559.736	-0.01
560.156	0.01
560.577	0.01
560.997	0
561.418	-0.02
561.838	-0
562.258	0
562.679	-0
563.099	-0
563.519	-0
563.939	-0
564.359	0
564.779	-0
565.199	-0.01
565.619	-0
566.039	-0
566.459	-0.01
566.878	0
567.298	0
567.717	0.01
568.137	0
568.557	-0.01
568.976	-0
569.395	0.01
569.815	0
570.234	0.01
570.653	-0
571.072	-0
571.491	-0
571.911	-0
572.33	0.01
572.748	0
573.167	0
573.586	-0.01
574.005	0.01
574.424	0
574.842	-0
575.261	0
575.68	-0
576.098	0
576.517	0.01
576.935	-0.01
577.353	0
577.772	0.01
578.19	0
578.608	0
579.026	0
579.444	0
579.862	-0
580.28	0
580.698	0
581.116	0.01
581.534	0
581.952	0
582.369	0.01
582.787	0
583.205	0
583.622	0.01
584.04	-0.01
584.457	0
584.875	0
585.292	0.01
585.709	-0
586.126	0.01
586.544	-0
586.961	-0
587.378	0.01
587.795	-0
588.212	-0
588.629	-0.01
589.046	0
589.462	0
589.879	0
590.296	-0
590.712	0
591.129	-0.01
591.546	-0
591.962	0.01
592.378	-0
592.795	-0
593.211	-0.01
593.627	0
594.044	-0.01
594.46	0
594.876	-0.01
595.292	-0
595.708	-0
596.124	0.01
596.54	-0.01
596.955	-0
597.371	-0.01
597.787	0
598.203	-0.01
598.618	0.01
599.034	-0.01
599.449	-0
599.865	0
600.28	0
600.696	-0
601.111	-0
601.526	-0.01
601.941	-0.02
602.356	0.01
602.771	0.01
603.186	-0
603.601	0.01
604.016	-0
604.431	-0.01
604.846	0
605.261	-0
605.675	0.01
606.09	-0
606.505	0
606.919	-0.01
607.334	-0
607.748	0.01
608.163	0
608.577	0.01
608.991	-0.01
609.405	-0
609.82	-0.01
610.234	0.02
610.648	-0
611.062	-0
611.476	-0.01
611.89	0.01
612.303	-0
612.717	0.01
613.131	0.01
613.545	0.01
613.958	-0.01
614.372	-0
614.785	-0.01
615.199	0
615.612	-0
616.026	-0
616.439	0
616.852	0.01
617.265	-0
617.679	0.01
618.092	0.01
618.505	0.02
618.918	0
619.331	-0.01
619.744	-0.03
620.156	0.01
620.569	0
620.982	-0
621.395	-0.01
621.807	0
622.22	0
622.632	-0
623.045	0
623.457	0
623.869	0
624.282	0
624.694	0
625.106	-0.01
625.518	-0
625.93	0
626.342	0
626.754	0.02
627.166	0.01
627.578	0.01
627.99	-0
628.402	0.01
628.814	-0
629.225	0
629.637	0.01
630.048	-0.01
630.46	0.01
630.871	-0.01
631.283	0.01
631.694	-0.01
632.105	0
632.517	0
632.928	-0.01
633.339	0.01
633.75	-0.01
634.161	0.01
634.572	-0
634.983	0.01
635.394	0.03
635.805	0
636.215	-0
636.626	0.01
637.037	0.01
637.447	0.01
637.858	0.01
638.268	0.01
638.679	0
639.089	0.01
639.499	-0.01
639.91	-0
640.32	0.01
640.73	-0
641.14	0.01
641.55	0.01
641.96	-0
642.37	0.01
642.78	0
643.19	0
643.6	0
644.01	0.01
644.419	0
644.829	-0.01
645.238	0.01
645.648	-0
646.058	-0
646.467	0.01
646.876	-0
647.286	0
647.695	0
648.104	0.01
648.513	-0.01
648.922	0.02
649.331	0.02
649.74	0.01
650.149	0.01
650.558	0.01
650.967	0
651.376	0
651.785	0.01
652.193	-0.01
652.602	-0.01
653.011	-0.01
653.419	0
653.828	0.01
654.236	0.02
654.644	0.01
655.053	0.01
655.461	-0.01
655.869	0
656.277	0.01
656.686	-0
657.094	0
657.502	0.01
657.91	0
658.317	0
658.725	-0
659.133	-0
659.541	0.01
659.949	0.02
660.356	0.01
660.764	0.01
661.171	-0
661.579	0
661.986	-0.01
662.394	0
662.801	-0.01
663.208	0.01
663.615	0.02
664.023	-0
664.43	-0.01
664.837	-0.01
665.244	-0
665.651	-0.02
666.058	-0.01
666.464	-0.01
666.871	-0
667.278	0
667.685	0
668.091	-0.01
668.498	-0.01
668.904	0.01
669.311	0
669.717	-0
670.124	0
670.53	0
670.936	-0
671.342	0.01
671.749	-0.01
672.155	-0
672.561	0.01
672.967	0.01
673.373	0
673.779	-0
674.184	0.02
674.59	0.01
674.996	-0.01
675.402	0.01
675.807	-0.02
676.213	0
676.618	0.01
677.024	0
677.429	-0.02
677.835	0
678.24	-0
678.645	0.01
679.051	-0.01
679.456	0
679.861	0.01
680.266	0.01
680.671	-0.01
681.076	0
681.481	-0.01
681.886	0.01
682.29	-0.01
682.695	-0.01
683.1	0
683.504	-0
683.909	0
684.314	0.01
684.718	-0.01
685.123	0
685.527	0.02
685.931	-0.02
686.335	0.01
686.74	-0.01
687.144	0.01
687.548	0
687.952	0.01
688.356	0.02
688.76	-0.01
689.164	-0
689.568	0.01
689.972	-0
690.375	0
690.779	-0
691.183	-0.01
691.586	-0
691.99	0.01
692.393	0
692.797	0
693.2	0.01
693.604	0
694.007	0
694.41	-0
694.813	0.02
695.216	0
695.619	0.03
696.022	0
696.425	0.01
696.828	0
697.231	0
697.634	0.01
698.037	0.01
698.439	0.02
698.842	0.01
699.245	0
699.647	0
700.05	0.01
700.452	-0.01
700.855	0
701.257	-0.01
701.659	0
702.061	-0
702.464	0
702.866	-0
703.268	0.01
703.67	-0.01
704.072	0.02
704.474	-0.01
704.876	0.02
705.278	-0
705.679	0
706.081	-0
706.483	0.01
706.884	0.01
707.286	-0
707.687	-0
708.089	0.01
708.49	0.02
708.892	0.01
709.293	0.01
709.694	-0.01
710.095	-0.01
710.497	-0
710.898	0.01
711.299	-0.01
711.7	-0
712.101	0
712.501	0.01
712.902	0.02
713.303	0
713.704	0.02
714.105	-0
714.505	0.01
714.906	-0.02
715.306	-0
715.707	0.01
716.107	-0.01
716.508	-0
716.908	0
717.308	0.01
717.708	0
718.108	-0.01
718.509	0.01
718.909	-0.01
719.309	0.01
719.709	-0.01
720.109	0.01
720.508	-0
720.908	0.01
721.308	0
721.708	-0
722.107	0
722.507	0
722.906	-0.01
723.306	-0
723.705	-0.01
724.105	-0
724.504	-0
724.903	-0.01
725.303	-0.01
725.702	-0
726.101	-0.02
726.5	0.02
726.899	-0
727.298	0.01
727.697	-0
728.096	-0.01
728.495	0.01
728.893	0
729.292	0
729.691	-0
730.089	0
730.488	0.02
730.886	0
731.285	-0.01
731.683	-0
732.082	0.01
732.48	-0.01
732.878	0.01
733.276	0
733.674	-0
734.073	-0
734.471	0.02
734.869	0
735.267	-0.01
735.664	-0
736.062	-0.01
736.46	-0.02
736.858	-0
737.255	0.01
737.653	0
738.051	0.01
738.448	-0.01
738.846	-0.01
739.243	-0.02
739.641	-0
740.038	-0.01
740.435	0.01
740.832	-0
741.229	0.01
741.627	0
742.024	0.01
742.421	-0
742.818	-0.01
743.215	-0.01
743.611	-0.01
744.008	0.01
744.405	0.01
744.802	0
745.198	0.01
745.595	-0
745.992	-0
746.388	0
746.784	0
747.181	0.02
747.577	0.01
747.973	0.01
748.37	-0
748.766	-0
749.162	-0.01
749.558	-0.02
749.954	0.02
750.35	0
750.746	0
751.142	-0.01
751.538	0.02
751.934	-0
752.329	-0.01
752.725	0
753.121	0
753.516	0.01
753.912	-0
754.307	0.01
754.703	-0
755.098	0
755.493	-0.01
755.889	0.01
756.284	-0
756.679	-0.01
757.074	0.01
757.469	-0
757.864	-0.02
758.259	0.02
758.654	0.01
759.049	0
759.444	0
759.839	-0.01
760.233	-0.02
760.628	0.01
761.022	-0
761.417	-0.01
761.812	-0.01
762.206	-0
762.6	0
762.995	-0
763.389	-0.01
763.783	0.02
764.177	0.01
764.572	0.01
764.966	-0.01
765.36	0.02
765.754	-0.03
766.148	0.02
766.542	-0.01
766.935	0.01
767.329	0.02
767.723	0
768.117	-0
768.51	0
768.904	0.01
769.297	0
769.691	0.02
770.084	-0
770.478	0.02
770.871	-0
771.264	-0
771.658	0.02
772.051	-0.01
772.444	-0.01
772.837	0
773.23	0.03
773.623	-0.01
774.016	-0
774.409	-0.01
774.802	0
775.194	-0
775.587	0
775.98	0.01
776.372	0.03
776.765	0
777.157	0.01
777.55	-0.01
777.942	-0.01
778.335	-0
778.727	0.02
779.119	0.01
779.511	0
779.904	-0.01
780.296	-0.03
780.688	0
781.08	0.01
781.472	-0.01
781.864	0.03
782.255	0
782.647	0
783.039	0.01
783.431	-0.03
783.822	-0.01
784.214	0.02
784.605	0.02
784.997	-0.01
785.388	0.01
785.78	-0.03
786.171	0.02
786.562	0
786.954	-0
787.345	0
787.736	-0.02
788.127	0.01
788.518	-0.03
788.909	-0
789.3	-0
789.691	0.05
790.082	-0.02
790.473	0.01
790.863	0.02
791.254	0.03
791.645	0.01
792.035	-0.03
792.426	0
792.816	-0.02
793.207	-0.01
793.597	-0.01
793.987	-0.01
794.378	0.02
794.768	-0.03
795.158	-0.01
795.548	-0
795.938	-0.02
796.328	0.03
796.718	0.02
797.108	-0.03
797.498	0.04
797.888	-0.02
798.278	0.01
798.668	-0.02
799.057	0.01
799.447	-0.02
799.836	0.01
800.226	0
800.615	0.01
801.005	0.03
801.394	-0.01
801.784	0.01
802.173	0.05
802.562	-0.03
802.951	-0.02
803.34	-0.02
803.729	0.02
804.118	-0.02
804.507	0.07
804.896	0.05
805.285	0.04
805.674	-0.01
806.063	-0.01
806.451	0.02
806.84	0
807.229	-0.02
807.617	0.01
808.006	-0.04
808.394	-0.02
808.783	0
809.171	0.01
809.559	0
809.948	0.03
810.336	-0
810.724	-0.01
811.112	-0.02
811.5	-0.03
811.888	-0.02
812.276	-0.07
812.664	0.02
813.052	0
813.44	-0.01
813.828	0.04
814.215	0.01
814.603	0.05
814.991	-0.01
815.378	0.05
815.766	-0.03
816.153	0.03
816.54	-0.04
816.928	-0.03
817.315	0.01
817.702	-0.03
818.09	-0.04
818.477	-0.04
818.864	0.02
819.251	-0.02
819.638	-0
820.025	0.02
820.412	0.02
820.799	0
821.185	0.04
821.572	0.02
821.959	-0.03
822.346	-0
822.732	0.02
823.119	0
823.505	0.01
823.892	-0
824.278	0
824.664	-0.02
825.051	0
825.437	0.04
825.823	0.02
826.209	0.05
826.595	0.01
826.982	-0.01
827.368	-0.02
827.754	0.09
828.139	0.03
828.525	0.01
828.911	0.05
829.297	-0
829.683	-0.02
830.068	0.04
830.454	-0.02
830.839	0.03
831.225	0
831.61	0.04
831.996	0.07
832.381	0.02
832.766	0.06
833.152	0.04
833.537	-0.04
833.922	0.07
834.307	0.03
834.692	-0.03
835.077	-0.04
835.462	0.01
835.847	-0.01
836.232	0
836.617	0.02
837.001	-0.03
837.386	0.06
837.771	-0
838.155	0.01
838.54	0.01
838.925	-0.01
839.309	0.03
839.693	-0.05
840.078	0.06
840.462	-0.02
840.846	0.03
841.231	-0.01
841.615	-0.04
841.999	-0.01
842.383	-0.04
842.767	0.06
843.151	-0.01
843.535	0.05
843.919	0.08
844.302	-0.04
844.686	0.02
845.07	0.06
845.454	0.02
845.837	0.03
846.221	0.04
846.604	-0.04
846.988	-0.03
847.371	0.01
847.754	0.03
848.138	-0.05
848.521	-0
848.904	0
849.287	-0.03
849.671	0.02
850.054	-0.04
850.437	0.04
850.82	0.01
851.202	-0
851.585	-0.04
851.968	0.05
852.351	-0
852.734	-0.01
853.116	0.03
853.499	-0.05
853.882	-0.08
854.264	0.16
854.647	0.04
855.029	0.06
855.411	0.01
855.794	-0
856.176	-0
856.558	0.08
856.94	0.03
857.322	0.02
857.704	0.09
858.087	0.02
858.468	0.06
858.85	0.06
859.232	-0.06
859.614	-0.09
859.996	0.08
860.378	0.02
860.759	0.01
861.141	-0.03
861.522	0.05
861.904	-0.05
862.285	0.04
862.667	-0.06
863.048	0.02
863.43	0.04
863.811	-0.02
864.192	0.06
864.573	0.08
864.954	-0.05
865.336	0.06
865.717	0.01
866.098	-0.13
866.479	-0.03
866.859	-0
867.24	-0.02
867.621	-0.05
868.002	0.01
868.382	0.02
868.763	0
869.144	0.19
869.524	-0.06
869.905	-0.01
870.285	-0.03
870.666	0.05
871.046	0.08
871.426	0.07
871.806	0.11
872.187	0.06
872.567	0.03
872.947	0.06
873.327	-0
873.707	0.01
874.087	-0.04
874.467	0
874.847	0.04
875.226	0.01
875.606	0
875.986	-0.09
876.366	-0.03
876.745	0.04
877.125	0
877.504	-0.07
877.884	-0.02
878.263	0.06
878.642	0.06
879.022	-0.06
879.401	-0.02
879.78	-0.03
880.159	-0.01
880.538	-0
880.918	-0.02
881.297	-0.06
881.675	0.09
882.054	0.02
882.433	-0.02
882.812	0.24
883.191	0.03
883.57	0.12
883.948	-0.08
884.327	0.01
884.705	-0.1
885.084	-0
885.462	0
885.841	-0.01
886.219	-0.03
886.598	-0.05
886.976	-0.17
887.354	0.02
887.732	0.06
888.11	0.07
888.488	-0.03
888.866	0.06
889.244	-0.02
889.622	0.04
890	-0.02
890.378	-0.06
890.756	-0.13
891.134	-0.12
891.511	-0.07
891.889	-0.04
892.267	0.02
892.644	0.11
893.022	-0.01
893.399	0.02
893.776	0.12
894.154	-0.11
894.531	0.01
894.908	0.12
895.286	0.08
895.663	0.05
896.04	-0.07
896.417	0.03
896.794	-0.12
897.171	0.07
897.548	0.03
897.925	0.11
898.301	-0.08
898.678	0.1
899.055	0.11
899.432	-0.21
899.808	0.03
900.185	0.02
900.561	-0.12
900.938	-0.06
901.314	-0.07
901.69	-0.04
902.067	0.15
902.443	-0.1
902.819	-0.01
903.195	0.09
903.572	-0.08
903.948	0.04
904.324	0.16
904.7	-0.1
905.076	0.03
905.451	-0.04
905.827	-0
906.203	0.09
906.579	-0.07
906.955	-0.18
907.33	0.13
907.706	-0.02
908.081	-0.02
908.457	-0.03
908.832	-0.11
909.208	-0.1
909.583	-0.1
909.958	-0.1
910.334	-0.08
910.709	-0.24
911.084	-0.03
911.459	0.09
911.834	0.2
912.209	0.11
912.584	-0.15
912.959	-0.06
913.334	-0.12
913.709	-0.2
914.083	0.17
914.458	-0.02
914.833	0.04
915.207	-0.08
915.582	-0.08
915.956	0.03
916.331	0.03
916.705	0.15
917.08	-0.08
917.454	0.13
917.828	0.11
918.203	-0.17
918.577	-0.17
918.951	0.02
919.325	0.42
919.699	0.01
920.073	0.27
920.447	-0.05
920.821	0.1
921.195	-0.01
921.568	0.07
921.942	-0.27
922.316	-0.16
922.689	-0.13
923.063	-0.05
923.437	-0.27
923.81	0.02
924.184	0.04
924.557	-0.24
924.93	0.08
925.304	-0.3
925.677	0.26
926.05	0.31
926.423	-0.14
926.796	-0.18
927.169	0.31
927.542	-0
927.915	0.07
928.288	0.29
928.661	0.02
929.034	0.18
929.407	-0.51
929.78	-0.39
930.152	0.02
930.525	0.02
930.897	0.4
931.27	0.03
931.642	0.26
932.015	0.26
932.387	0.1
932.76	-0.13
933.132	0.26
933.504	-0.15
933.876	0.38
934.249	0.53
934.621	0.51
934.993	-0.34
935.365	0.21
935.737	0.42
936.109	0.15
936.48	0.07
936.852	0.01
937.224	-0.24
937.596	0.8
937.967	-0.79
938.339	-0.7
938.711	0.1
939.082	0.03
939.454	-0.62
939.825	-0.03
940.196	-1.2
940.568	0.59
940.939	-0.23
941.31	0.11
941.681	0.34
942.052	-0.19
942.424	0.56
942.795	0.36
943.166	-0.87
943.537	0.51
943.907	-0.16
944.278	0.68
944.649	-0.03
945.02	0.13
945.391	0.79
945.761	1.11
946.132	-0.31
946.502	-0.66
946.873	-0.64
947.243	-0.1
947.614	-0.1
947.984	-0.83
948.354	-1.85
948.725	0.33
949.095	0.2
949.465	-0.67
949.835	-0.78
950.205	-0.16
950.575	0.08
950.945	-0.77
951.315	0.86
951.685	-0.29
952.055	-0.32
952.425	0.19
952.794	-0.79
953.164	0.47
953.534	-0.04
953.903	0.27
954.273	-0.06
954.642	-0.43
955.012	0.33
955.381	1.4
955.751	0.68
956.12	0.25
956.489	0.37
956.859	0.19
957.228	-0.66
957.597	0.47
957.966	0.66
958.335	-0.09
958.704	0.28
959.073	1.04
959.442	-0.04
959.811	-0.36
960.179	0.01
960.548	-1.95
960.917	-0.66
961.285	0.49
961.654	1.43
962.023	0.4
962.391	0.33
962.759	1.45
963.128	-0.15
963.496	0.96
963.865	-0.09
964.233	0.71
964.601	-1.08
964.969	-0.31
965.337	0.23
965.705	-1.59
966.073	-0.08
966.441	-0.5
966.809	-1.12
967.177	0.55
967.545	0.1
967.913	0.93
968.28	-0.71
968.648	0.34
969.016	1.21
969.383	-0.53
969.751	1.26
970.118	0.73
970.486	-1.45
970.853	1.99
971.221	0.68
971.588	4.56
971.955	-1.38
972.322	-0.56
972.69	-0.11
973.057	0.49
973.424	1.66
973.791	-2.65
974.158	1.45
974.525	-1.24
974.892	0.32
975.258	2.44
975.625	-0.32
975.992	-0.82
976.359	6.22
976.725	-4.74
977.092	-0.06
977.458	2.39
977.825	1.45
978.191	-1.23
978.558	-2.91
978.924	1.08
979.29	2.18
979.657	4.33
980.023	-3.18
980.389	-3.14
980.755	0.97
981.121	-0.65
981.487	-3.09
981.853	-0.2
982.219	-0.52
982.585	-6.62
982.951	5.58
983.317	2.48
983.682	-0.35
984.048	0.1
984.414	1.8
984.779	4.61
985.145	-3.52
985.51	2.42
985.876	-2.63
986.241	-1.47
986.607	4.79
986.972	0.96
987.337	-2.92
987.702	10.47
988.068	-2.32
988.433	4.34
988.798	1.14
989.163	4.49
989.528	-6.59
989.893	0.15
990.258	-1.6
990.622	11.33
990.987	-3.23
991.352	-0.8
991.717	-6.8
992.081	-2.78
992.446	-17.18
992.811	3.09
993.175	2.6
993.539	8.62
993.904	5.48
994.268	5.82
994.633	3.59
994.997	18.8
995.361	3.33
995.725	-4.84
996.089	2.91
996.453	-10.41
996.818	-6.61
997.182	-11.77
997.545	11.44
997.909	-8.04
998.273	-4.93
998.637	5.21
999.001	18.95
999.364	-2.34
999.728	-19.56
1000.092	23.43
1000.455	8.45
1000.819	12.9
1001.182	16.29
1001.546	-22.1
1001.909	7.25
1002.272	-14.09
1002.636	-3.08
1002.999	-27.59
1003.362	-12.35
1003.725	-9.09
1004.088	-29.46
1004.451	19.47
1004.814	-22
1005.177	-13.47
1005.54	11.33
1005.903	5.39
1006.266	-14.11
1006.629	-6.89
1006.991	2.03
1007.354	7.77
1007.717	-2.36
1008.079	5.08
1008.442	-4.43
1008.804	19.03
1009.167	-8.69
1009.529	-18.42
1009.891	-12.36
1010.254	-12.99
1010.616	14.02
1010.978	23
1011.34	-6.75
1011.702	32.21
1012.065	21.41
1012.427	-1.21
1012.789	11.7
1013.15	-10.48
1013.512	14.95
1013.874	31.04
1014.236	-11.67
1014.598	-26.99
1014.959	-13.52
1015.321	-8.26
1015.683	-6.26
1016.044	-20.47
1016.406	9.48
1016.767	12.09
1017.128	-5.75
1017.49	-29.62
1017.851	10.4
1018.212	-7.55
1018.574	-3.96
1018.935	-13.21
1019.296	18.32
1019.657	13.78
1020.018	-19.64
1020.379	-9.68
1020.74	-1.11
1021.101	3.27
1021.462	31.98
1021.822	-22.08
1022.183	-10.21
1022.544	7.41
1022.905	-6.67
1023.265	-11.25
1023.626	-31.85
1023.986	-15.2
1024.347	-24.68
1024.707	16.23
1025.068	0.22
1025.428	-11.34
1025.788	-13.19
1026.148	24.98
1026.509	14.81
1026.869	4.97
1027.229	1.48
1027.589	24.96
1027.949	-40.92
1028.309	-5.44
1028.669	-20.1
1029.029	1.17
1029.388	-22.84
1029.748	20.67
1030.108	13.05
1030.468	1.85
1030.827	30.23
1031.187	4.05
1031.546	-9.7
1031.906	-14.76
1032.265	4.01
1032.625	-7.01
1032.984	-25.05
1033.343	-9.96
1033.703	-24.31
1034.062	17.41
1034.421	-1.67
1034.78	3.61
1035.139	-1.35
1035.498	-10.28
1035.857	11.33
1036.216	-7.73
1036.575	2.74
1036.934	11.46
1037.293	-2.43
1037.651	2.1
1038.01	11.44
1038.369	-5.37
1038.727	3.12
1039.086	1.32
1039.444	3.51
1039.803	-3.42
1040.161	-12.87
1040.52	0.47
1040.878	5.78
1041.236	0.66
